{
  "resourceType": "Bundle",
  "id": "38ae8183-d98e-4c62-903a-95b332a8bfb8",
  "meta": {
    "lastUpdated": "2016-12-11T00:00:00.000+05:30"
  },
  "identifier": {
    "system": "https://www.max.in/bundle",
    "value": "38ae8183-d98e-4c62-903a-95b332a8bfb8"
  },
  "type": "document",
  "timestamp": "2016-12-11T00:00:00.000+05:30",
  "entry": [
    {
      "fullUrl": "Composition/63115912-41da-4be4-b609-919863073604",
      "resource": {
        "resourceType": "Composition",
        "id": "63115912-41da-4be4-b609-919863073604",
        "identifier": {
          "system": "https://www.max.in/document",
          "value": "63115912-41da-4be4-b609-919863073604"
        },
        "status": "final",
        "type": {
          "coding": [
            {
              "system": "https://projecteka.in/sct",
              "code": "721981007",
              "display": "Diagnostic Report"
            }
          ]
        },
        "subject": {
          "reference": "Patient/LIVNO15"
        },
        "encounter": {
          "reference": "Encounter/c6a72ebe-e673-4a4b-baa2-b5cffbf1d1f4"
        },
        "date": "2016-12-11T00:00:00.605+05:30",
        "author": [
          {
            "reference": "Practitioner/MAX191101",
            "display": "Dr Akshatha M K"
          }
        ],
        "title": "Diagnostic Report Document",
        "section": [
          {
            "title": "# Diagnostic Report",
            "code": {
              "coding": [
                {
                  "system": "https://projecteka.in/sct",
                  "code": "721981007",
                  "display": "Diagnostic Report"
                }
              ]
            },
            "entry": [
              {
                "reference": "DiagnosticReport/548ae694-4096-40dd-8a88-d2c54ec1cafa"
              }
            ]
          }
        ]
      }
    },
    {
      "fullUrl": "Practitioner/MAX191101",
      "resource": {
        "resourceType": "Practitioner",
        "id": "MAX191101",
        "identifier": [
          {
            "system": "https://www.mciindia.in/doctor",
            "value": "MAX191101"
          }
        ],
        "name": [
          {
            "text": "Akshatha M K",
            "prefix": [
              "Dr"
            ],
            "suffix": [
              "MD"
            ]
          }
        ]
      }
    },
    {
      "fullUrl": "Patient/LIVNO15",
      "resource": {
        "resourceType": "Patient",
        "id": "LIVNO15",
        "name": [
          {
            "text": "Alex Oxlade"
          }
        ],
        "gender": "male"
      }
    },
    {
      "fullUrl": "Encounter/c6a72ebe-e673-4a4b-baa2-b5cffbf1d1f4",
      "resource": {
        "resourceType": "Encounter",
        "id": "c6a72ebe-e673-4a4b-baa2-b5cffbf1d1f4",
        "status": "finished",
        "class": {
          "system": "http://terminology.hl7.org/CodeSystem/v3-ActCode",
          "code": "AMB",
          "display": "Outpatient visit"
        },
        "subject": {
          "reference": "Patient/LIVNO15"
        },
        "period": {
          "start": "2016-12-11T00:00:00+05:30"
        }
      }
    },
    {
      "fullUrl": "DiagnosticReport/548ae694-4096-40dd-8a88-d2c54ec1cafa",
      "resource": {
        "resourceType": "DiagnosticReport",
        "id": "548ae694-4096-40dd-8a88-d2c54ec1cafa",
        "status": "final",
        "code": {
          "coding": [
            {
              "system": "https://projecteka.in/loinc",
              "code": "718-7",
              "display": "Hemoglobin [Mass/volume] in Blood"
            }
          ],
          "text": "Hemoglobin [Mass/volume] in Blood"
        },
        "subject": {
          "reference": "Patient/LIVNO15"
        },
        "effectiveDateTime": "2016-12-11T00:00:00+05:30",
        "issued": "2016-12-11T00:00:00.000+05:30",
        "performer": [
          {
            "reference": "Organization/MaxSaket01"
          }
        ],
        "resultsInterpreter": [
          {
            "reference": "Practitioner/MAX5001"
          }
        ],
        "result": [
          {
            "reference": "Observation/35187576-3634-410a-b071-3c76409188b6"
          }
        ],
        "conclusion": "Refer to Doctor. To be correlated with further study."
      }
    },
    {
      "fullUrl": "Organization/MaxSaket01",
      "resource": {
        "resourceType": "Organization",
        "id": "MaxSaket01",
        "name": "Max Super Speciality Hospital, Saket",
        "alias": [
          "Max"
        ],
        "telecom": [
          {
            "system": "phone",
            "value": "(+91) 011-2651-5050"
          },
          {
            "system": "fax",
            "value": "(+91) 011-2651-5051"
          }
        ],
        "address": [
          {
            "line": [
              "1, 2, Press Enclave Marg, Saket Institutional Area, Saket"
            ],
            "city": "New Delhi",
            "state": "New Delhi",
            "postalCode": "110017",
            "country": "INDIA"
          }
        ],
        "endpoint": [
          {
            "reference": "https://www.max.in/hospital-network/max-super-speciality-hospital-saket",
            "display": "Website"
          }
        ]
      }
    },
    {
      "fullUrl": "Practitioner/MAX5001",
      "resource": {
        "resourceType": "Practitioner",
        "id": "MAX5001",
        "identifier": [
          {
            "system": "https://www.mciindia.in/doctor",
            "value": "MAX5001"
          }
        ],
        "name": [
          {
            "text": "Laxmikanth J",
            "prefix": [
              "Dr"
            ],
            "suffix": [
              "MD"
            ]
          }
        ]
      }
    },
    {
      "fullUrl": "Observation/35187576-3634-410a-b071-3c76409188b6",
      "resource": {
        "resourceType": "Observation",
        "id": "35187576-3634-410a-b071-3c76409188b6",
        "status": "final",
        "code": {
          "text": "Triglyceride"
        },
        "valueString": "1.3 mmol/L"
      }
    }
  ]
}