{
    "resourceType": "Bundle",
    "id": "a6e63707-8ce6-4066-b92d-fb00c16d0ab9",
    "meta": {
      "lastUpdated": "2018-08-03T00:00:00.000+05:30"
    },
    "identifier": {
      "system": "https://www.max.in/bundle",
      "value": "a6e63707-8ce6-4066-b92d-fb00c16d0ab9"
    },
    "type": "document",
    "timestamp": "2018-08-03T00:00:00.000+05:30",
    "entry": [
      {
        "fullUrl": "Composition/3b990853-f0fa-4046-8388-d71dd93a0fa1",
        "resource": {
          "resourceType": "Composition",
          "id": "3b990853-f0fa-4046-8388-d71dd93a0fa1",
          "identifier": {
            "system": "https://www.max.in/document",
            "value": "3b990853-f0fa-4046-8388-d71dd93a0fa1"
          },
          "status": "final",
          "type": {
            "coding": [
              {
                "system": "https://projecteka.in/sct",
                "code": "440545006",
                "display": "Prescription record"
              }
            ]
          },
          "subject": {
            "reference": "Patient/NCC1702"
          },
          "encounter": {
            "reference": "Encounter/2c6e729f-a709-4de8-9147-854f73d6d775"
          },
          "date": "2018-08-03T15:32:26.605+05:30",
          "author": [
            {
              "reference": "Practitioner/MAX191101",
              "display": "Dr Akshatha M K"
            }
          ],
          "title": "Prescription",
          "section": [
            {
              "title": "OPD Prescription",
              "code": {
                "coding": [
                  {
                    "system": "https://projecteka.in/sct",
                    "code": "440545006",
                    "display": "Prescription record"
                  }
                ]
              },
              "entry": [
                {
                  "reference": "MedicationRequest/82e255f8-2a4e-447a-b4e1-53c3672b5d02"
                }
              ]
            }
          ]
        }
      },
      {
        "fullUrl": "Practitioner/MAX191101",
        "resource": {
          "resourceType": "Practitioner",
          "id": "MAX191101",
          "identifier": [
            {
              "system": "https://www.mciindia.in/doctor",
              "value": "MAX191101"
            }
          ],
          "name": [
            {
              "text": "Akshatha M K",
              "prefix": [
                "Dr"
              ],
              "suffix": [
                "MD"
              ]
            }
          ]
        }
      },
      {
        "fullUrl": "Patient/NCC1702",
        "resource": {
          "resourceType": "Patient",
          "id": "NCC1702",
          "name": [
            {
              "text": "Navjot Singhal"
            }
          ],
          "gender": "female"
        }
      },
      {
        "fullUrl": "Encounter/2c6e729f-a709-4de8-9147-854f73d6d775",
        "resource": {
          "resourceType": "Encounter",
          "id": "2c6e729f-a709-4de8-9147-854f73d6d775",
          "status": "finished",
          "class": {
            "system": "http://terminology.hl7.org/CodeSystem/v3-ActCode",
            "code": "AMB",
            "display": "Outpatient visit"
          },
          "subject": {
            "reference": "Patient/NCC1702"
          },
          "period": {
            "start": "2018-08-03T00:00:00+05:30"
          }
        }
      },
      {
        "fullUrl": "MedicationRequest/82e255f8-2a4e-447a-b4e1-53c3672b5d02",
        "resource": {
          "resourceType": "MedicationRequest",
          "id": "82e255f8-2a4e-447a-b4e1-53c3672b5d02",
          "status": "active",
          "intent": "order",
          "medicationCodeableConcept": {
            "text": "ergotamine 4 mg"
          },
          "subject": {
            "reference": "Patient/NCC1702"
          },
          "authoredOn": "2018-08-03T00:00:00+05:30",
          "requester": {
            "reference": "Practitioner/MAX191101"
          },
          "dosageInstruction": [
            {
              "text": "1 tablet 2 times a day"
            }
          ]
        }
      }
    ]
  }