{
	"resourceType": "Bundle",
	"id": "cb5fac2a-8d34-4a29-ab74-ca4d1ec1d515",
	"type": "collection",
	"entry": [
        {
			"fullUrl": "urn:uuid:56273c86-4c4c-4041-9a2e-b7ae58a59a65",
			"resource": {
				"resourceType": "DiagnosticReport",
				"id": "56273c86-4c4c-4041-9a2e-b7ae58a59a65",
				"text": {
					"status": "additional",
					"div": "<div xmlns=\"http://www.w3.org/1999/xhtml\">Unstructured data can be sent here</div>"
				},
				"status": "final",
				"code": {
					"text": "Lipid Panel"
				},
				"subject": {
					"display": "Riyaz"
				},
				"effectiveDateTime": "2019-06-01T08:30:00+11:00",
				"issued": "2019-06-01T11:45:33+11:00",
				"performer": [{
					"display": "Acme Laboratory, Inc"
				}],
				"result": [{
						"id": "1",
						"reference": "Observation/d324663a-4057-45d2-92bb-cd2d0a5a7a60"
					},
					{
						"id": "2",
						"reference": "Observation/33528149-5d21-4097-89f5-9554d308b511"
					}
				]
			}
		},
		{
			"fullUrl": "urn:uuid:d324663a-4057-45d2-92bb-cd2d0a5a7a60",
			"resource": {
				"resourceType": "Observation",
				"id": "d324663a-4057-45d2-92bb-cd2d0a5a7a60",
				"status": "final",
				"code": {
					"text": "Cholesterol"
				},
				"subject": {
					"display": "Riyaz"
				},
				"performer": [{
					"display": "Acme Laboratory, Inc"
				}],
				"valueString": "6.3mmol/L"
			}
		},
		{
			"fullUrl": "urn:uuid:33528149-5d21-4097-89f5-9554d308b511",
			"resource": {
				"resourceType": "Observation",
				"id": "33528149-5d21-4097-89f5-9554d308b511",
				"text": {
					"status": "additional",
					"div": "<div xmlns=\"http://www.w3.org/1999/xhtml\">Unstructured data can be sent here</div>"
				},
				"status": "final",
				"code": {
					"text": "Triglyceride"
				},
				"subject": {
					"display": "Riyaz"
				},
				"performer": [{
					"display": "Acme Laboratory, Inc"
				}],
				"valueString": "1.3 mmol/L"
			}
		}
	]
}